sub	ses	block	n_targets	n_fill	n_trials	n_acc	p_acc	n_target_hit	p_target_hit	n_target_miss	p_target_miss	n_fill_corr	p_fill_corr	n_fill_fa	p_fill_fa	p_target_ba	rt_mean_target_hit	rt_med_target_hit
5.0	1.0	b0	16.0	44.0	60.0	60.0	100.0	16.0	100.0	0.0	0.0	44.0	100.0	0.0	0.0	100.0	582.5	560.5
5.0	1.0	b1	16.0	44.0	60.0	59.0	98.333	16.0	100.0	0.0	0.0	43.0	97.727	1.0	2.273	98.864	675.188	646.5
5.0	1.0	b2	16.0	44.0	60.0	58.0	96.667	15.0	93.75	1.0	6.25	43.0	97.727	1.0	2.273	95.739	960.067	878.0
6.0	1.0	b0	16.0	44.0	60.0	59.0	98.333	16.0	100.0	0.0	0.0	43.0	97.727	1.0	2.273	98.864	658.25	654.5
6.0	1.0	b1	16.0	44.0	60.0	57.0	95.0	13.0	81.25	3.0	18.75	44.0	100.0	0.0	0.0	90.625	774.308	738.0
6.0	1.0	b2	16.0	44.0	60.0	50.0	83.333	8.0	50.0	8.0	50.0	42.0	95.455	2.0	4.545	72.727	1033.0	920.5
7.0	1.0	b0	16.0	44.0	60.0	49.0	81.667	9.0	56.25	7.0	43.75	40.0	90.909	4.0	9.091	73.58	750.0	699.0
7.0	1.0	b1	16.0	44.0	60.0	60.0	100.0	16.0	100.0	0.0	0.0	44.0	100.0	0.0	0.0	100.0	892.938	902.0
7.0	1.0	b2	16.0	44.0	60.0	55.0	91.667	11.0	68.75	5.0	31.25	44.0	100.0	0.0	0.0	84.375	1108.455	1068.0
9.0	1.0	b0	16.0	44.0	60.0	59.0	98.333	16.0	100.0	0.0	0.0	43.0	97.727	1.0	2.273	98.864	692.688	654.5
9.0	1.0	b1	16.0	44.0	60.0	54.0	90.0	15.0	93.75	1.0	6.25	39.0	88.636	5.0	11.364	91.193	807.933	788.0
9.0	1.0	b2	16.0	44.0	60.0	53.0	88.333	11.0	68.75	5.0	31.25	42.0	95.455	2.0	4.545	82.102	1130.636	1107.0
11.0	1.0	b0	16.0	44.0	60.0	59.0	98.333	16.0	100.0	0.0	0.0	43.0	97.727	1.0	2.273	98.864	730.5	686.0
11.0	1.0	b1	16.0	44.0	60.0	60.0	100.0	16.0	100.0	0.0	0.0	44.0	100.0	0.0	0.0	100.0	800.688	810.5
11.0	1.0	b2	16.0	44.0	60.0	54.0	90.0	10.0	62.5	6.0	37.5	44.0	100.0	0.0	0.0	81.25	657.7	656.5
17.0	1.0	b0	16.0	44.0	60.0	60.0	100.0	16.0	100.0	0.0	0.0	44.0	100.0	0.0	0.0	100.0	703.938	677.0
17.0	1.0	b1	16.0	44.0	60.0	59.0	98.333	16.0	100.0	0.0	0.0	43.0	97.727	1.0	2.273	98.864	752.375	658.0
17.0	1.0	b2	16.0	44.0	60.0	53.0	88.333	9.0	56.25	7.0	43.75	44.0	100.0	0.0	0.0	78.125	631.222	623.0
18.0	1.0	b0	16.0	44.0	60.0	60.0	100.0	16.0	100.0	0.0	0.0	44.0	100.0	0.0	0.0	100.0	713.438	717.0
18.0	1.0	b1	16.0	44.0	60.0	58.0	96.667	15.0	93.75	1.0	6.25	43.0	97.727	1.0	2.273	95.739	927.6	894.0
18.0	1.0	b2	16.0	44.0	60.0	56.0	93.333	13.0	81.25	3.0	18.75	43.0	97.727	1.0	2.273	89.489	746.846	719.0
19.0	1.0	b0	16.0	44.0	60.0	58.0	96.667	16.0	100.0	0.0	0.0	42.0	95.455	2.0	4.545	97.727	706.375	688.0
19.0	1.0	b1	16.0	44.0	60.0	59.0	98.333	15.0	93.75	1.0	6.25	44.0	100.0	0.0	0.0	96.875	777.133	823.0
19.0	1.0	b2	16.0	44.0	60.0	36.0	60.0	10.0	62.5	6.0	37.5	26.0	59.091	18.0	40.909	60.795	739.8	768.0
20.0	1.0	b0	16.0	44.0	60.0	59.0	98.333	15.0	93.75	1.0	6.25	44.0	100.0	0.0	0.0	96.875	660.667	639.0
20.0	1.0	b1	16.0	44.0	60.0	60.0	100.0	16.0	100.0	0.0	0.0	44.0	100.0	0.0	0.0	100.0	843.312	827.5
20.0	1.0	b2	16.0	44.0	60.0	49.0	81.667	10.0	62.5	6.0	37.5	39.0	88.636	5.0	11.364	75.568	1194.7	1293.5
21.0	1.0	b0	16.0	44.0	60.0	59.0	98.333	16.0	100.0	0.0	0.0	43.0	97.727	1.0	2.273	98.864	619.375	574.5
21.0	1.0	b1	16.0	44.0	60.0	58.0	96.667	15.0	93.75	1.0	6.25	43.0	97.727	1.0	2.273	95.739	604.267	631.0
21.0	1.0	b2	16.0	44.0	60.0	50.0	83.333	6.0	37.5	10.0	62.5	44.0	100.0	0.0	0.0	68.75	1022.167	1032.5
22.0	1.0	b0	16.0	44.0	60.0	59.0	98.333	16.0	100.0	0.0	0.0	43.0	97.727	1.0	2.273	98.864	678.125	644.5
22.0	1.0	b1	16.0	44.0	60.0	59.0	98.333	15.0	93.75	1.0	6.25	44.0	100.0	0.0	0.0	96.875	978.2	999.0
22.0	1.0	b2	16.0	44.0	60.0	53.0	88.333	13.0	81.25	3.0	18.75	40.0	90.909	4.0	9.091	86.08	758.769	807.0
23.0	1.0	b0	16.0	44.0	60.0	57.0	95.0	14.0	87.5	2.0	12.5	43.0	97.727	1.0	2.273	92.614	608.929	589.0
23.0	1.0	b1	16.0	44.0	60.0	58.0	96.667	14.0	87.5	2.0	12.5	44.0	100.0	0.0	0.0	93.75	665.0	610.5
23.0	1.0	b2	16.0	44.0	60.0	56.0	93.333	12.0	75.0	4.0	25.0	44.0	100.0	0.0	0.0	87.5	989.167	917.0
26.0	1.0	b0	16.0	44.0	60.0	60.0	100.0	16.0	100.0	0.0	0.0	44.0	100.0	0.0	0.0	100.0	588.75	602.5
26.0	1.0	b1	16.0	44.0	60.0	60.0	100.0	16.0	100.0	0.0	0.0	44.0	100.0	0.0	0.0	100.0	744.062	725.0
26.0	1.0	b2	16.0	44.0	60.0	54.0	90.0	11.0	68.75	5.0	31.25	43.0	97.727	1.0	2.273	83.239	911.0	835.0
28.0	1.0	b0	16.0	44.0	60.0	59.0	98.333	16.0	100.0	0.0	0.0	43.0	97.727	1.0	2.273	98.864	594.562	578.5
28.0	1.0	b1	16.0	44.0	60.0	59.0	98.333	15.0	93.75	1.0	6.25	44.0	100.0	0.0	0.0	96.875	646.4	620.0
28.0	1.0	b2	16.0	44.0	60.0	57.0	95.0	14.0	87.5	2.0	12.5	43.0	97.727	1.0	2.273	92.614	722.857	673.5
30.0	1.0	b0	16.0	44.0	60.0	59.0	98.333	16.0	100.0	0.0	0.0	43.0	97.727	1.0	2.273	98.864	704.5	708.0
30.0	1.0	b1	16.0	44.0	60.0	60.0	100.0	16.0	100.0	0.0	0.0	44.0	100.0	0.0	0.0	100.0	695.562	672.5
30.0	1.0	b2	16.0	44.0	60.0	57.0	95.0	16.0	100.0	0.0	0.0	41.0	93.182	3.0	6.818	96.591	846.75	821.5
31.0	1.0	b0	16.0	44.0	60.0	60.0	100.0	16.0	100.0	0.0	0.0	44.0	100.0	0.0	0.0	100.0	767.812	782.5
31.0	1.0	b1	16.0	44.0	60.0	59.0	98.333	15.0	93.75	1.0	6.25	44.0	100.0	0.0	0.0	96.875	853.6	860.0
31.0	1.0	b2	16.0	44.0	60.0	49.0	81.667	10.0	62.5	6.0	37.5	39.0	88.636	5.0	11.364	75.568	1070.7	1187.0
33.0	1.0	b0	16.0	44.0	60.0	60.0	100.0	16.0	100.0	0.0	0.0	44.0	100.0	0.0	0.0	100.0	607.438	592.5
33.0	1.0	b1	16.0	44.0	60.0	55.0	91.667	11.0	68.75	5.0	31.25	44.0	100.0	0.0	0.0	84.375	959.909	1052.0
33.0	1.0	b2	16.0	44.0	60.0	47.0	78.333	3.0	18.75	13.0	81.25	44.0	100.0	0.0	0.0	59.375	708.0	606.0
35.0	1.0	b0	16.0	44.0	60.0	58.0	96.667	15.0	93.75	1.0	6.25	43.0	97.727	1.0	2.273	95.739	651.267	686.0
35.0	1.0	b1	16.0	44.0	60.0	57.0	95.0	14.0	87.5	2.0	12.5	43.0	97.727	1.0	2.273	92.614	997.071	953.0
35.0	1.0	b2	16.0	44.0	60.0	48.0	80.0	6.0	37.5	10.0	62.5	42.0	95.455	2.0	4.545	66.477	1102.333	1212.0
36.0	1.0	b0	16.0	44.0	60.0	55.0	91.667	15.0	93.75	1.0	6.25	40.0	90.909	4.0	9.091	92.33	633.333	630.0
36.0	1.0	b1	16.0	44.0	60.0	56.0	93.333	15.0	93.75	1.0	6.25	41.0	93.182	3.0	6.818	93.466	758.133	760.0
36.0	1.0	b2	16.0	44.0	60.0	47.0	78.333	3.0	18.75	13.0	81.25	44.0	100.0	0.0	0.0	59.375	506.333	493.0
38.0	1.0	b0	16.0	44.0	60.0	59.0	98.333	16.0	100.0	0.0	0.0	43.0	97.727	1.0	2.273	98.864	534.75	539.5
38.0	1.0	b1	16.0	44.0	60.0	59.0	98.333	16.0	100.0	0.0	0.0	43.0	97.727	1.0	2.273	98.864	546.938	510.5
38.0	1.0	b2	16.0	44.0	60.0	56.0	93.333	12.0	75.0	4.0	25.0	44.0	100.0	0.0	0.0	87.5	610.083	550.5
39.0	1.0	b0	16.0	44.0	60.0	58.0	96.667	16.0	100.0	0.0	0.0	42.0	95.455	2.0	4.545	97.727	646.875	633.5
39.0	1.0	b1	16.0	44.0	60.0	59.0	98.333	16.0	100.0	0.0	0.0	43.0	97.727	1.0	2.273	98.864	822.438	836.5
39.0	1.0	b2	16.0	44.0	60.0	54.0	90.0	12.0	75.0	4.0	25.0	42.0	95.455	2.0	4.545	85.227	1070.167	1040.5
40.0	1.0	b0	16.0	44.0	60.0	60.0	100.0	16.0	100.0	0.0	0.0	44.0	100.0	0.0	0.0	100.0	570.5	593.5
40.0	1.0	b1	16.0	44.0	60.0	59.0	98.333	16.0	100.0	0.0	0.0	43.0	97.727	1.0	2.273	98.864	725.688	660.5
40.0	1.0	b2	16.0	44.0	60.0	50.0	83.333	6.0	37.5	10.0	62.5	44.0	100.0	0.0	0.0	68.75	581.667	561.0
41.0	1.0	b0	16.0	44.0	60.0	60.0	100.0	16.0	100.0	0.0	0.0	44.0	100.0	0.0	0.0	100.0	596.875	579.5
41.0	1.0	b1	16.0	44.0	60.0	58.0	96.667	15.0	93.75	1.0	6.25	43.0	97.727	1.0	2.273	95.739	737.467	693.0
41.0	1.0	b2	16.0	44.0	60.0	48.0	80.0	5.0	31.25	11.0	68.75	43.0	97.727	1.0	2.273	64.489	855.8	876.0
43.0	1.0	b0	16.0	44.0	60.0	59.0	98.333	16.0	100.0	0.0	0.0	43.0	97.727	1.0	2.273	98.864	515.312	514.5
43.0	1.0	b1	16.0	44.0	60.0	60.0	100.0	16.0	100.0	0.0	0.0	44.0	100.0	0.0	0.0	100.0	566.938	492.5
43.0	1.0	b2	16.0	44.0	60.0	58.0	96.667	14.0	87.5	2.0	12.5	44.0	100.0	0.0	0.0	93.75	700.714	654.5
45.0	1.0	b0	16.0	44.0	60.0	59.0	98.333	16.0	100.0	0.0	0.0	43.0	97.727	1.0	2.273	98.864	452.812	441.5
45.0	1.0	b1	16.0	44.0	60.0	60.0	100.0	16.0	100.0	0.0	0.0	44.0	100.0	0.0	0.0	100.0	579.438	482.5
45.0	1.0	b2	16.0	44.0	60.0	57.0	95.0	13.0	81.25	3.0	18.75	44.0	100.0	0.0	0.0	90.625	578.769	471.0
47.0	1.0	b0	16.0	44.0	60.0	59.0	98.333	16.0	100.0	0.0	0.0	43.0	97.727	1.0	2.273	98.864	698.812	646.0
47.0	1.0	b1	16.0	44.0	60.0	60.0	100.0	16.0	100.0	0.0	0.0	44.0	100.0	0.0	0.0	100.0	872.938	867.0
47.0	1.0	b2	16.0	44.0	60.0	53.0	88.333	9.0	56.25	7.0	43.75	44.0	100.0	0.0	0.0	78.125	1271.333	1297.0
48.0	1.0	b0	16.0	44.0	60.0	60.0	100.0	16.0	100.0	0.0	0.0	44.0	100.0	0.0	0.0	100.0	626.875	603.5
48.0	1.0	b1	16.0	44.0	60.0	58.0	96.667	14.0	87.5	2.0	12.5	44.0	100.0	0.0	0.0	93.75	566.357	530.0
48.0	1.0	b2	16.0	44.0	60.0	52.0	86.667	8.0	50.0	8.0	50.0	44.0	100.0	0.0	0.0	75.0	815.375	691.0
49.0	1.0	b0	16.0	44.0	60.0	59.0	98.333	16.0	100.0	0.0	0.0	43.0	97.727	1.0	2.273	98.864	524.625	523.0
49.0	1.0	b1	16.0	44.0	60.0	59.0	98.333	16.0	100.0	0.0	0.0	43.0	97.727	1.0	2.273	98.864	658.25	639.5
49.0	1.0	b2	16.0	44.0	60.0	52.0	86.667	9.0	56.25	7.0	43.75	43.0	97.727	1.0	2.273	76.989	705.556	633.0
51.0	1.0	b0	16.0	44.0	60.0	58.0	96.667	16.0	100.0	0.0	0.0	42.0	95.455	2.0	4.545	97.727	664.312	611.0
51.0	1.0	b1	16.0	44.0	60.0	59.0	98.333	16.0	100.0	0.0	0.0	43.0	97.727	1.0	2.273	98.864	715.938	706.0
51.0	1.0	b2	16.0	44.0	60.0	52.0	86.667	8.0	50.0	8.0	50.0	44.0	100.0	0.0	0.0	75.0	687.25	600.5
52.0	1.0	b0	16.0	44.0	60.0	60.0	100.0	16.0	100.0	0.0	0.0	44.0	100.0	0.0	0.0	100.0	712.0	592.5
52.0	1.0	b1	16.0	44.0	60.0	56.0	93.333	16.0	100.0	0.0	0.0	40.0	90.909	4.0	9.091	95.455	742.375	608.0
52.0	1.0	b2	16.0	44.0	60.0	49.0	81.667	5.0	31.25	11.0	68.75	44.0	100.0	0.0	0.0	65.625	723.0	864.0
54.0	1.0	b0	16.0	44.0	60.0	60.0	100.0	16.0	100.0	0.0	0.0	44.0	100.0	0.0	0.0	100.0	625.5	649.5
54.0	1.0	b1	16.0	44.0	60.0	55.0	91.667	11.0	68.75	5.0	31.25	44.0	100.0	0.0	0.0	84.375	791.727	796.0
54.0	1.0	b2	16.0	44.0	60.0	48.0	80.0	4.0	25.0	12.0	75.0	44.0	100.0	0.0	0.0	62.5	1084.5	881.5
55.0	1.0	b0	16.0	44.0	60.0	59.0	98.333	16.0	100.0	0.0	0.0	43.0	97.727	1.0	2.273	98.864	573.062	574.5
55.0	1.0	b1	16.0	44.0	60.0	60.0	100.0	16.0	100.0	0.0	0.0	44.0	100.0	0.0	0.0	100.0	650.875	617.5
55.0	1.0	b2	16.0	44.0	60.0	55.0	91.667	12.0	75.0	4.0	25.0	43.0	97.727	1.0	2.273	86.364	781.333	727.5
56.0	1.0	b0	16.0	44.0	60.0	59.0	98.333	16.0	100.0	0.0	0.0	43.0	97.727	1.0	2.273	98.864	557.438	536.5
56.0	1.0	b1	16.0	44.0	60.0	60.0	100.0	16.0	100.0	0.0	0.0	44.0	100.0	0.0	0.0	100.0	620.625	613.0
56.0	1.0	b2	16.0	44.0	60.0	57.0	95.0	13.0	81.25	3.0	18.75	44.0	100.0	0.0	0.0	90.625	679.769	653.0
57.0	1.0	b0	16.0	44.0	60.0	13.0	21.667	12.0	75.0	4.0	25.0	1.0	2.273	43.0	97.727	38.636	700.0	780.0
57.0	1.0	b1	16.0	44.0	60.0	57.0	95.0	15.0	93.75	1.0	6.25	42.0	95.455	2.0	4.545	94.602	784.267	793.0
57.0	1.0	b2	16.0	44.0	60.0	51.0	85.0	8.0	50.0	8.0	50.0	43.0	97.727	1.0	2.273	73.864	907.75	679.0
58.0	1.0	b0	16.0	44.0	60.0	60.0	100.0	16.0	100.0	0.0	0.0	44.0	100.0	0.0	0.0	100.0	602.875	618.5
58.0	1.0	b1	16.0	44.0	60.0	60.0	100.0	16.0	100.0	0.0	0.0	44.0	100.0	0.0	0.0	100.0	675.75	602.5
58.0	1.0	b2	16.0	44.0	60.0	57.0	95.0	13.0	81.25	3.0	18.75	44.0	100.0	0.0	0.0	90.625	705.692	635.0
68.0	1.0	b0	16.0	44.0	60.0	60.0	100.0	16.0	100.0	0.0	0.0	44.0	100.0	0.0	0.0	100.0	588.562	587.5
68.0	1.0	b1	16.0	44.0	60.0	59.0	98.333	15.0	93.75	1.0	6.25	44.0	100.0	0.0	0.0	96.875	770.533	785.0
68.0	1.0	b2	16.0	44.0	60.0	49.0	81.667	5.0	31.25	11.0	68.75	44.0	100.0	0.0	0.0	65.625	969.2	1115.0
69.0	1.0	b0	16.0	44.0	60.0	59.0	98.333	16.0	100.0	0.0	0.0	43.0	97.727	1.0	2.273	98.864	734.125	689.0
69.0	1.0	b1	16.0	44.0	60.0	56.0	93.333	13.0	81.25	3.0	18.75	43.0	97.727	1.0	2.273	89.489	825.0	750.0
69.0	1.0	b2	16.0	44.0	60.0	51.0	85.0	8.0	50.0	8.0	50.0	43.0	97.727	1.0	2.273	73.864	1077.875	991.0
70.0	1.0	b0	16.0	44.0	60.0	59.0	98.333	16.0	100.0	0.0	0.0	43.0	97.727	1.0	2.273	98.864	581.75	570.0
70.0	1.0	b1	16.0	44.0	60.0	59.0	98.333	16.0	100.0	0.0	0.0	43.0	97.727	1.0	2.273	98.864	581.438	578.0
70.0	1.0	b2	16.0	44.0	60.0	52.0	86.667	8.0	50.0	8.0	50.0	44.0	100.0	0.0	0.0	75.0	573.375	481.5
71.0	1.0	b0	16.0	44.0	60.0	59.0	98.333	15.0	93.75	1.0	6.25	44.0	100.0	0.0	0.0	96.875	558.533	550.0
71.0	1.0	b1	16.0	44.0	60.0	59.0	98.333	16.0	100.0	0.0	0.0	43.0	97.727	1.0	2.273	98.864	731.812	739.5
71.0	1.0	b2	16.0	44.0	60.0	52.0	86.667	8.0	50.0	8.0	50.0	44.0	100.0	0.0	0.0	75.0	792.875	638.0
72.0	1.0	b0	16.0	44.0	60.0	60.0	100.0	16.0	100.0	0.0	0.0	44.0	100.0	0.0	0.0	100.0	529.938	532.0
72.0	1.0	b1	16.0	44.0	60.0	52.0	86.667	8.0	50.0	8.0	50.0	44.0	100.0	0.0	0.0	75.0	691.5	645.5
72.0	1.0	b2	16.0	44.0	60.0	51.0	85.0	9.0	56.25	7.0	43.75	42.0	95.455	2.0	4.545	75.852	698.444	635.0
73.0	1.0	b0	16.0	44.0	60.0	59.0	98.333	16.0	100.0	0.0	0.0	43.0	97.727	1.0	2.273	98.864	544.688	556.0
73.0	1.0	b1	16.0	44.0	60.0	59.0	98.333	15.0	93.75	1.0	6.25	44.0	100.0	0.0	0.0	96.875	682.2	659.0
73.0	1.0	b2	16.0	44.0	60.0	49.0	81.667	6.0	37.5	10.0	62.5	43.0	97.727	1.0	2.273	67.614	755.167	665.0
74.0	1.0	b0	16.0	44.0	60.0	60.0	100.0	16.0	100.0	0.0	0.0	44.0	100.0	0.0	0.0	100.0	561.125	543.0
74.0	1.0	b1	16.0	44.0	60.0	58.0	96.667	14.0	87.5	2.0	12.5	44.0	100.0	0.0	0.0	93.75	743.5	703.5
74.0	1.0	b2	16.0	44.0	60.0	53.0	88.333	9.0	56.25	7.0	43.75	44.0	100.0	0.0	0.0	78.125	689.444	507.0
75.0	1.0	b0	16.0	44.0	60.0	59.0	98.333	16.0	100.0	0.0	0.0	43.0	97.727	1.0	2.273	98.864	648.812	649.5
75.0	1.0	b1	16.0	44.0	60.0	58.0	96.667	15.0	93.75	1.0	6.25	43.0	97.727	1.0	2.273	95.739	722.333	678.0
75.0	1.0	b2	16.0	44.0	60.0	50.0	83.333	6.0	37.5	10.0	62.5	44.0	100.0	0.0	0.0	68.75	857.167	979.0
76.0	1.0	b0	16.0	44.0	60.0	59.0	98.333	16.0	100.0	0.0	0.0	43.0	97.727	1.0	2.273	98.864	646.812	594.5
76.0	1.0	b1	16.0	44.0	60.0	58.0	96.667	14.0	87.5	2.0	12.5	44.0	100.0	0.0	0.0	93.75	688.071	680.0
76.0	1.0	b2	16.0	44.0	60.0	50.0	83.333	7.0	43.75	9.0	56.25	43.0	97.727	1.0	2.273	70.739	462.0	461.0
77.0	1.0	b0	16.0	44.0	60.0	60.0	100.0	16.0	100.0	0.0	0.0	44.0	100.0	0.0	0.0	100.0	629.75	625.0
77.0	1.0	b1	16.0	44.0	60.0	58.0	96.667	14.0	87.5	2.0	12.5	44.0	100.0	0.0	0.0	93.75	780.5	790.5
77.0	1.0	b2	16.0	44.0	60.0	48.0	80.0	5.0	31.25	11.0	68.75	43.0	97.727	1.0	2.273	64.489	906.2	719.0
78.0	1.0	b0	16.0	44.0	60.0	58.0	96.667	16.0	100.0	0.0	0.0	42.0	95.455	2.0	4.545	97.727	689.25	667.0
78.0	1.0	b1	16.0	44.0	60.0	58.0	96.667	15.0	93.75	1.0	6.25	43.0	97.727	1.0	2.273	95.739	752.6	647.0
78.0	1.0	b2	16.0	44.0	60.0	50.0	83.333	10.0	62.5	6.0	37.5	40.0	90.909	4.0	9.091	76.705	924.2	619.0
80.0	1.0	b0	16.0	44.0	60.0	59.0	98.333	16.0	100.0	0.0	0.0	43.0	97.727	1.0	2.273	98.864	510.5	499.0
80.0	1.0	b1	16.0	44.0	60.0	59.0	98.333	16.0	100.0	0.0	0.0	43.0	97.727	1.0	2.273	98.864	619.875	623.5
80.0	1.0	b2	16.0	44.0	60.0	57.0	95.0	15.0	93.75	1.0	6.25	42.0	95.455	2.0	4.545	94.602	654.6	667.0
81.0	1.0	b0	16.0	44.0	60.0	60.0	100.0	16.0	100.0	0.0	0.0	44.0	100.0	0.0	0.0	100.0	541.25	551.0
81.0	1.0	b1	16.0	44.0	60.0	59.0	98.333	15.0	93.75	1.0	6.25	44.0	100.0	0.0	0.0	96.875	569.267	567.0
81.0	1.0	b2	16.0	44.0	60.0	58.0	96.667	14.0	87.5	2.0	12.5	44.0	100.0	0.0	0.0	93.75	578.286	494.5
83.0	1.0	b0	16.0	44.0	60.0	59.0	98.333	16.0	100.0	0.0	0.0	43.0	97.727	1.0	2.273	98.864	760.375	699.0
83.0	1.0	b1	16.0	44.0	60.0	60.0	100.0	16.0	100.0	0.0	0.0	44.0	100.0	0.0	0.0	100.0	754.938	743.5
83.0	1.0	b2	16.0	44.0	60.0	54.0	90.0	11.0	68.75	5.0	31.25	43.0	97.727	1.0	2.273	83.239	942.0	954.0
84.0	1.0	b0	16.0	44.0	60.0	59.0	98.333	16.0	100.0	0.0	0.0	43.0	97.727	1.0	2.273	98.864	650.562	578.0
84.0	1.0	b1	16.0	44.0	60.0	58.0	96.667	14.0	87.5	2.0	12.5	44.0	100.0	0.0	0.0	93.75	806.071	777.0
84.0	1.0	b2	16.0	44.0	60.0	49.0	81.667	5.0	31.25	11.0	68.75	44.0	100.0	0.0	0.0	65.625	538.4	443.0
89.0	1.0	b0	16.0	44.0	60.0	60.0	100.0	16.0	100.0	0.0	0.0	44.0	100.0	0.0	0.0	100.0	540.438	520.0
89.0	1.0	b1	16.0	44.0	60.0	58.0	96.667	16.0	100.0	0.0	0.0	42.0	95.455	2.0	4.545	97.727	711.062	727.0
89.0	1.0	b2	16.0	44.0	60.0	56.0	93.333	12.0	75.0	4.0	25.0	44.0	100.0	0.0	0.0	87.5	771.417	669.0
90.0	1.0	b0	16.0	44.0	60.0	59.0	98.333	16.0	100.0	0.0	0.0	43.0	97.727	1.0	2.273	98.864	593.875	594.5
90.0	1.0	b1	16.0	44.0	60.0	56.0	93.333	14.0	87.5	2.0	12.5	42.0	95.455	2.0	4.545	91.477	734.0	738.5
90.0	1.0	b2	16.0	44.0	60.0	56.0	93.333	13.0	81.25	3.0	18.75	43.0	97.727	1.0	2.273	89.489	971.769	785.0
93.0	1.0	b0	12.0	34.0	46.0	30.0	65.217	8.0	66.667	4.0	33.333	22.0	64.706	12.0	35.294	65.686	542.625	460.5
93.0	1.0	b1	16.0	44.0	60.0	60.0	100.0	16.0	100.0	0.0	0.0	44.0	100.0	0.0	0.0	100.0	613.438	571.5
93.0	1.0	b2	16.0	44.0	60.0	57.0	95.0	13.0	81.25	3.0	18.75	44.0	100.0	0.0	0.0	90.625	731.231	713.0
94.0	1.0	b0	16.0	44.0	60.0	58.0	96.667	16.0	100.0	0.0	0.0	42.0	95.455	2.0	4.545	97.727	785.438	664.5
94.0	1.0	b1	16.0	44.0	60.0	57.0	95.0	13.0	81.25	3.0	18.75	44.0	100.0	0.0	0.0	90.625	814.231	811.0
94.0	1.0	b2	16.0	44.0	60.0	51.0	85.0	7.0	43.75	9.0	56.25	44.0	100.0	0.0	0.0	71.875	696.286	653.0
95.0	1.0	b0	16.0	44.0	60.0	60.0	100.0	16.0	100.0	0.0	0.0	44.0	100.0	0.0	0.0	100.0	430.625	428.0
95.0	1.0	b1	16.0	44.0	60.0	60.0	100.0	16.0	100.0	0.0	0.0	44.0	100.0	0.0	0.0	100.0	618.0	654.5
95.0	1.0	b2	16.0	44.0	60.0	57.0	95.0	13.0	81.25	3.0	18.75	44.0	100.0	0.0	0.0	90.625	790.615	859.0
96.0	1.0	b0	16.0	44.0	60.0	59.0	98.333	16.0	100.0	0.0	0.0	43.0	97.727	1.0	2.273	98.864	518.812	528.5
96.0	1.0	b1	16.0	44.0	60.0	59.0	98.333	15.0	93.75	1.0	6.25	44.0	100.0	0.0	0.0	96.875	630.4	675.0
96.0	1.0	b2	16.0	44.0	60.0	53.0	88.333	12.0	75.0	4.0	25.0	41.0	93.182	3.0	6.818	84.091	739.167	585.0
98.0	1.0	b0	16.0	44.0	60.0	58.0	96.667	16.0	100.0	0.0	0.0	42.0	95.455	2.0	4.545	97.727	604.625	582.0
98.0	1.0	b1	16.0	44.0	60.0	58.0	96.667	14.0	87.5	2.0	12.5	44.0	100.0	0.0	0.0	93.75	736.214	720.0
98.0	1.0	b2	16.0	44.0	60.0	48.0	80.0	5.0	31.25	11.0	68.75	43.0	97.727	1.0	2.273	64.489	1124.2	829.0
101.0	1.0	b0	16.0	44.0	60.0	60.0	100.0	16.0	100.0	0.0	0.0	44.0	100.0	0.0	0.0	100.0	628.0	603.5
101.0	1.0	b1	16.0	44.0	60.0	60.0	100.0	16.0	100.0	0.0	0.0	44.0	100.0	0.0	0.0	100.0	652.25	592.0
101.0	1.0	b2	16.0	44.0	60.0	50.0	83.333	6.0	37.5	10.0	62.5	44.0	100.0	0.0	0.0	68.75	718.667	588.0
103.0	1.0	b0	16.0	44.0	60.0	53.0	88.333	16.0	100.0	0.0	0.0	37.0	84.091	7.0	15.909	92.045	597.438	614.5
103.0	1.0	b1	16.0	44.0	60.0	58.0	96.667	16.0	100.0	0.0	0.0	42.0	95.455	2.0	4.545	97.727	765.188	742.5
103.0	1.0	b2	16.0	44.0	60.0	57.0	95.0	13.0	81.25	3.0	18.75	44.0	100.0	0.0	0.0	90.625	1117.692	1120.0
104.0	1.0	b0	16.0	44.0	60.0	59.0	98.333	16.0	100.0	0.0	0.0	43.0	97.727	1.0	2.273	98.864	665.188	665.5
104.0	1.0	b1	16.0	44.0	60.0	57.0	95.0	16.0	100.0	0.0	0.0	41.0	93.182	3.0	6.818	96.591	806.688	859.5
104.0	1.0	b2	16.0	44.0	60.0	51.0	85.0	8.0	50.0	8.0	50.0	43.0	97.727	1.0	2.273	73.864	1175.25	1097.0
105.0	1.0	b0	16.0	44.0	60.0	58.0	96.667	16.0	100.0	0.0	0.0	42.0	95.455	2.0	4.545	97.727	566.25	568.0
105.0	1.0	b1	16.0	44.0	60.0	57.0	95.0	15.0	93.75	1.0	6.25	42.0	95.455	2.0	4.545	94.602	790.933	789.0
105.0	1.0	b2	16.0	44.0	60.0	49.0	81.667	6.0	37.5	10.0	62.5	43.0	97.727	1.0	2.273	67.614	768.833	607.0
106.0	1.0	b0	16.0	44.0	60.0	57.0	95.0	16.0	100.0	0.0	0.0	41.0	93.182	3.0	6.818	96.591	706.5	663.5
106.0	1.0	b1	16.0	44.0	60.0	52.0	86.667	12.0	75.0	4.0	25.0	40.0	90.909	4.0	9.091	82.955	1009.583	923.5
106.0	1.0	b2	16.0	44.0	60.0	53.0	88.333	9.0	56.25	7.0	43.75	44.0	100.0	0.0	0.0	78.125	808.0	632.0
107.0	1.0	b0	16.0	44.0	60.0	60.0	100.0	16.0	100.0	0.0	0.0	44.0	100.0	0.0	0.0	100.0	809.688	815.5
107.0	1.0	b1	16.0	44.0	60.0	56.0	93.333	12.0	75.0	4.0	25.0	44.0	100.0	0.0	0.0	87.5	842.5	739.5
107.0	1.0	b2	16.0	44.0	60.0	49.0	81.667	9.0	56.25	7.0	43.75	40.0	90.909	4.0	9.091	73.58	761.111	737.0
109.0	1.0	b0	16.0	44.0	60.0	58.0	96.667	16.0	100.0	0.0	0.0	42.0	95.455	2.0	4.545	97.727	752.188	669.0
109.0	1.0	b1	16.0	44.0	60.0	59.0	98.333	16.0	100.0	0.0	0.0	43.0	97.727	1.0	2.273	98.864	837.75	771.5
109.0	1.0	b2	16.0	44.0	60.0	47.0	78.333	6.0	37.5	10.0	62.5	41.0	93.182	3.0	6.818	65.341	1147.667	1171.0
110.0	1.0	b0	16.0	44.0	60.0	60.0	100.0	16.0	100.0	0.0	0.0	44.0	100.0	0.0	0.0	100.0	641.875	621.5
110.0	1.0	b1	16.0	44.0	60.0	60.0	100.0	16.0	100.0	0.0	0.0	44.0	100.0	0.0	0.0	100.0	881.062	880.5
110.0	1.0	b2	16.0	44.0	60.0	51.0	85.0	7.0	43.75	9.0	56.25	44.0	100.0	0.0	0.0	71.875	853.143	771.0
111.0	1.0	b0	16.0	44.0	60.0	59.0	98.333	16.0	100.0	0.0	0.0	43.0	97.727	1.0	2.273	98.864	562.188	557.0
111.0	1.0	b1	16.0	44.0	60.0	58.0	96.667	15.0	93.75	1.0	6.25	43.0	97.727	1.0	2.273	95.739	657.867	618.0
111.0	1.0	b2	16.0	44.0	60.0	51.0	85.0	7.0	43.75	9.0	56.25	44.0	100.0	0.0	0.0	71.875	740.714	597.0
112.0	1.0	b0	16.0	44.0	60.0	59.0	98.333	15.0	93.75	1.0	6.25	44.0	100.0	0.0	0.0	96.875	778.933	761.0
112.0	1.0	b1	16.0	44.0	60.0	60.0	100.0	16.0	100.0	0.0	0.0	44.0	100.0	0.0	0.0	100.0	856.062	770.0
112.0	1.0	b2	16.0	44.0	60.0	54.0	90.0	10.0	62.5	6.0	37.5	44.0	100.0	0.0	0.0	81.25	787.7	765.0
113.0	1.0	b0	16.0	44.0	60.0	59.0	98.333	16.0	100.0	0.0	0.0	43.0	97.727	1.0	2.273	98.864	663.0	688.5
113.0	1.0	b1	16.0	44.0	60.0	58.0	96.667	16.0	100.0	0.0	0.0	42.0	95.455	2.0	4.545	97.727	702.188	670.0
113.0	1.0	b2	16.0	44.0	60.0	59.0	98.333	15.0	93.75	1.0	6.25	44.0	100.0	0.0	0.0	96.875	783.267	714.0
114.0	1.0	b0	16.0	44.0	60.0	59.0	98.333	16.0	100.0	0.0	0.0	43.0	97.727	1.0	2.273	98.864	720.562	656.5
114.0	1.0	b1	16.0	44.0	60.0	59.0	98.333	16.0	100.0	0.0	0.0	43.0	97.727	1.0	2.273	98.864	708.375	714.5
114.0	1.0	b2	16.0	44.0	60.0	57.0	95.0	15.0	93.75	1.0	6.25	42.0	95.455	2.0	4.545	94.602	1191.667	1177.0
115.0	1.0	b0	16.0	44.0	60.0	59.0	98.333	16.0	100.0	0.0	0.0	43.0	97.727	1.0	2.273	98.864	697.688	678.5
115.0	1.0	b1	16.0	44.0	60.0	60.0	100.0	16.0	100.0	0.0	0.0	44.0	100.0	0.0	0.0	100.0	967.375	911.5
115.0	1.0	b2	16.0	44.0	60.0	51.0	85.0	7.0	43.75	9.0	56.25	44.0	100.0	0.0	0.0	71.875	1147.714	802.0
116.0	1.0	b0	16.0	44.0	60.0	60.0	100.0	16.0	100.0	0.0	0.0	44.0	100.0	0.0	0.0	100.0	697.875	705.0
116.0	1.0	b1	16.0	44.0	60.0	60.0	100.0	16.0	100.0	0.0	0.0	44.0	100.0	0.0	0.0	100.0	994.062	1040.5
116.0	1.0	b2	16.0	44.0	60.0	50.0	83.333	7.0	43.75	9.0	56.25	43.0	97.727	1.0	2.273	70.739	911.0	861.0
117.0	1.0	b0	16.0	44.0	60.0	59.0	98.333	16.0	100.0	0.0	0.0	43.0	97.727	1.0	2.273	98.864	575.562	594.5
117.0	1.0	b1	16.0	44.0	60.0	59.0	98.333	15.0	93.75	1.0	6.25	44.0	100.0	0.0	0.0	96.875	782.2	772.0
117.0	1.0	b2	16.0	44.0	60.0	55.0	91.667	13.0	81.25	3.0	18.75	42.0	95.455	2.0	4.545	88.352	753.077	709.0
118.0	1.0	b0	16.0	44.0	60.0	57.0	95.0	16.0	100.0	0.0	0.0	41.0	93.182	3.0	6.818	96.591	686.5	633.0
118.0	1.0	b1	16.0	44.0	60.0	56.0	93.333	12.0	75.0	4.0	25.0	44.0	100.0	0.0	0.0	87.5	736.083	614.5
118.0	1.0	b2	16.0	44.0	60.0	52.0	86.667	8.0	50.0	8.0	50.0	44.0	100.0	0.0	0.0	75.0	1103.5	965.5
119.0	1.0	b0	16.0	44.0	60.0	57.0	95.0	13.0	81.25	3.0	18.75	44.0	100.0	0.0	0.0	90.625	592.923	574.0
119.0	1.0	b1	16.0	44.0	60.0	59.0	98.333	15.0	93.75	1.0	6.25	44.0	100.0	0.0	0.0	96.875	705.0	722.0
119.0	1.0	b2	16.0	44.0	60.0	48.0	80.0	4.0	25.0	12.0	75.0	44.0	100.0	0.0	0.0	62.5	832.25	642.5
120.0	1.0	b0	16.0	44.0	60.0	60.0	100.0	16.0	100.0	0.0	0.0	44.0	100.0	0.0	0.0	100.0	671.875	545.0
120.0	1.0	b1	16.0	44.0	60.0	58.0	96.667	15.0	93.75	1.0	6.25	43.0	97.727	1.0	2.273	95.739	776.6	779.0
120.0	1.0	b2	16.0	44.0	60.0	58.0	96.667	14.0	87.5	2.0	12.5	44.0	100.0	0.0	0.0	93.75	937.071	892.0
121.0	1.0	b0	16.0	44.0	60.0	59.0	98.333	16.0	100.0	0.0	0.0	43.0	97.727	1.0	2.273	98.864	700.688	751.0
121.0	1.0	b1	16.0	44.0	60.0	60.0	100.0	16.0	100.0	0.0	0.0	44.0	100.0	0.0	0.0	100.0	765.5	751.5
121.0	1.0	b2	16.0	44.0	60.0	55.0	91.667	12.0	75.0	4.0	25.0	43.0	97.727	1.0	2.273	86.364	958.75	974.5
122.0	1.0	b0	16.0	44.0	60.0	60.0	100.0	16.0	100.0	0.0	0.0	44.0	100.0	0.0	0.0	100.0	719.5	697.5
122.0	1.0	b1	16.0	44.0	60.0	60.0	100.0	16.0	100.0	0.0	0.0	44.0	100.0	0.0	0.0	100.0	1006.875	950.5
122.0	1.0	b2	16.0	44.0	60.0	53.0	88.333	10.0	62.5	6.0	37.5	43.0	97.727	1.0	2.273	80.114	934.6	893.0
123.0	1.0	b0	16.0	44.0	60.0	60.0	100.0	16.0	100.0	0.0	0.0	44.0	100.0	0.0	0.0	100.0	541.312	533.5
123.0	1.0	b1	16.0	44.0	60.0	57.0	95.0	13.0	81.25	3.0	18.75	44.0	100.0	0.0	0.0	90.625	773.846	800.0
123.0	1.0	b2	16.0	44.0	60.0	54.0	90.0	11.0	68.75	5.0	31.25	43.0	97.727	1.0	2.273	83.239	603.818	456.0
124.0	1.0	b0	16.0	44.0	60.0	58.0	96.667	16.0	100.0	0.0	0.0	42.0	95.455	2.0	4.545	97.727	706.062	620.5
124.0	1.0	b1	16.0	44.0	60.0	58.0	96.667	15.0	93.75	1.0	6.25	43.0	97.727	1.0	2.273	95.739	819.6	768.0
124.0	1.0	b2	16.0	44.0	60.0	52.0	86.667	9.0	56.25	7.0	43.75	43.0	97.727	1.0	2.273	76.989	709.111	704.0
125.0	1.0	b0	16.0	44.0	60.0	59.0	98.333	15.0	93.75	1.0	6.25	44.0	100.0	0.0	0.0	96.875	578.0	522.0
125.0	1.0	b1	16.0	44.0	60.0	59.0	98.333	16.0	100.0	0.0	0.0	43.0	97.727	1.0	2.273	98.864	748.062	740.5
125.0	1.0	b2	16.0	44.0	60.0	56.0	93.333	12.0	75.0	4.0	25.0	44.0	100.0	0.0	0.0	87.5	880.083	853.0
126.0	1.0	b0	16.0	44.0	60.0	59.0	98.333	16.0	100.0	0.0	0.0	43.0	97.727	1.0	2.273	98.864	780.625	704.0
126.0	1.0	b1	16.0	44.0	60.0	60.0	100.0	16.0	100.0	0.0	0.0	44.0	100.0	0.0	0.0	100.0	748.562	703.5
126.0	1.0	b2	16.0	44.0	60.0	54.0	90.0	12.0	75.0	4.0	25.0	42.0	95.455	2.0	4.545	85.227	709.333	666.0
127.0	1.0	b0	16.0	44.0	60.0	60.0	100.0	16.0	100.0	0.0	0.0	44.0	100.0	0.0	0.0	100.0	519.125	475.0
127.0	1.0	b1	16.0	44.0	60.0	59.0	98.333	15.0	93.75	1.0	6.25	44.0	100.0	0.0	0.0	96.875	619.267	541.0
127.0	1.0	b2	16.0	44.0	60.0	57.0	95.0	14.0	87.5	2.0	12.5	43.0	97.727	1.0	2.273	92.614	783.643	852.5
128.0	1.0	b0	16.0	44.0	60.0	59.0	98.333	16.0	100.0	0.0	0.0	43.0	97.727	1.0	2.273	98.864	709.062	646.0
128.0	1.0	b1	16.0	44.0	60.0	60.0	100.0	16.0	100.0	0.0	0.0	44.0	100.0	0.0	0.0	100.0	895.188	902.0
128.0	1.0	b2	16.0	44.0	60.0	51.0	85.0	7.0	43.75	9.0	56.25	44.0	100.0	0.0	0.0	71.875	772.143	698.0
129.0	1.0	b0	16.0	44.0	60.0	59.0	98.333	16.0	100.0	0.0	0.0	43.0	97.727	1.0	2.273	98.864	517.812	518.5
129.0	1.0	b1	16.0	44.0	60.0	60.0	100.0	16.0	100.0	0.0	0.0	44.0	100.0	0.0	0.0	100.0	587.312	560.0
129.0	1.0	b2	16.0	44.0	60.0	48.0	80.0	6.0	37.5	10.0	62.5	42.0	95.455	2.0	4.545	66.477	505.333	442.0
130.0	1.0	b0	16.0	44.0	60.0	59.0	98.333	16.0	100.0	0.0	0.0	43.0	97.727	1.0	2.273	98.864	752.312	705.0
130.0	1.0	b1	16.0	44.0	60.0	57.0	95.0	14.0	87.5	2.0	12.5	43.0	97.727	1.0	2.273	92.614	816.786	864.5
130.0	1.0	b2	16.0	44.0	60.0	38.0	63.333	12.0	75.0	4.0	25.0	26.0	59.091	18.0	40.909	67.045	900.667	646.0
131.0	1.0	b0	16.0	44.0	60.0	60.0	100.0	16.0	100.0	0.0	0.0	44.0	100.0	0.0	0.0	100.0	479.125	483.5
131.0	1.0	b1	16.0	44.0	60.0	60.0	100.0	16.0	100.0	0.0	0.0	44.0	100.0	0.0	0.0	100.0	579.062	541.5
131.0	1.0	b2	16.0	44.0	60.0	56.0	93.333	13.0	81.25	3.0	18.75	43.0	97.727	1.0	2.273	89.489	649.615	394.0
132.0	1.0	b0	16.0	44.0	60.0	59.0	98.333	16.0	100.0	0.0	0.0	43.0	97.727	1.0	2.273	98.864	781.25	729.5
132.0	1.0	b1	16.0	44.0	60.0	60.0	100.0	16.0	100.0	0.0	0.0	44.0	100.0	0.0	0.0	100.0	777.0	740.0
132.0	1.0	b2	16.0	44.0	60.0	51.0	85.0	7.0	43.75	9.0	56.25	44.0	100.0	0.0	0.0	71.875	1166.286	1208.0
133.0	1.0	b0	16.0	44.0	60.0	59.0	98.333	16.0	100.0	0.0	0.0	43.0	97.727	1.0	2.273	98.864	690.188	687.0
133.0	1.0	b1	16.0	44.0	60.0	56.0	93.333	12.0	75.0	4.0	25.0	44.0	100.0	0.0	0.0	87.5	829.833	869.5
133.0	1.0	b2	16.0	44.0	60.0	47.0	78.333	3.0	18.75	13.0	81.25	44.0	100.0	0.0	0.0	59.375	896.0	803.0
1.0	2.0	b0	16.0	44.0	60.0	56.0	93.333	14.0	87.5	2.0	12.5	42.0	95.455	2.0	4.545	91.477	680.857	549.5
1.0	2.0	b1	16.0	44.0	60.0	57.0	95.0	13.0	81.25	3.0	18.75	44.0	100.0	0.0	0.0	90.625	836.231	794.0
1.0	2.0	b2	16.0	44.0	60.0	58.0	96.667	15.0	93.75	1.0	6.25	43.0	97.727	1.0	2.273	95.739	785.333	700.0
2.0	2.0	b0	16.0	44.0	60.0	59.0	98.333	15.0	93.75	1.0	6.25	44.0	100.0	0.0	0.0	96.875	642.2	620.0
2.0	2.0	b1	16.0	44.0	60.0	60.0	100.0	16.0	100.0	0.0	0.0	44.0	100.0	0.0	0.0	100.0	690.125	768.0
2.0	2.0	b2	16.0	44.0	60.0	51.0	85.0	10.0	62.5	6.0	37.5	41.0	93.182	3.0	6.818	77.841	829.2	676.0
3.0	2.0	b0	16.0	44.0	60.0	59.0	98.333	16.0	100.0	0.0	0.0	43.0	97.727	1.0	2.273	98.864	582.688	586.5
3.0	2.0	b1	16.0	44.0	60.0	60.0	100.0	16.0	100.0	0.0	0.0	44.0	100.0	0.0	0.0	100.0	625.938	570.5
3.0	2.0	b2	16.0	44.0	60.0	56.0	93.333	15.0	93.75	1.0	6.25	41.0	93.182	3.0	6.818	93.466	812.0	798.0
5.0	2.0	b0	16.0	44.0	60.0	59.0	98.333	16.0	100.0	0.0	0.0	43.0	97.727	1.0	2.273	98.864	554.438	562.0
5.0	2.0	b1	16.0	44.0	60.0	58.0	96.667	16.0	100.0	0.0	0.0	42.0	95.455	2.0	4.545	97.727	782.25	754.5
5.0	2.0	b2	16.0	44.0	60.0	58.0	96.667	15.0	93.75	1.0	6.25	43.0	97.727	1.0	2.273	95.739	1008.8	974.0
6.0	2.0	b0	16.0	44.0	60.0	60.0	100.0	16.0	100.0	0.0	0.0	44.0	100.0	0.0	0.0	100.0	490.375	461.0
6.0	2.0	b1	16.0	44.0	60.0	59.0	98.333	16.0	100.0	0.0	0.0	43.0	97.727	1.0	2.273	98.864	655.188	648.0
7.0	2.0	b0	16.0	44.0	60.0	59.0	98.333	16.0	100.0	0.0	0.0	43.0	97.727	1.0	2.273	98.864	737.875	690.5
7.0	2.0	b1	16.0	44.0	60.0	58.0	96.667	15.0	93.75	1.0	6.25	43.0	97.727	1.0	2.273	95.739	670.067	631.0
7.0	2.0	b2	16.0	44.0	60.0	50.0	83.333	15.0	93.75	1.0	6.25	35.0	79.545	9.0	20.455	86.648	1145.2	1001.0
11.0	2.0	b0	16.0	44.0	60.0	60.0	100.0	16.0	100.0	0.0	0.0	44.0	100.0	0.0	0.0	100.0	462.875	446.5
11.0	2.0	b1	16.0	44.0	60.0	60.0	100.0	16.0	100.0	0.0	0.0	44.0	100.0	0.0	0.0	100.0	545.875	493.0
11.0	2.0	b2	16.0	44.0	60.0	60.0	100.0	16.0	100.0	0.0	0.0	44.0	100.0	0.0	0.0	100.0	541.062	559.0
17.0	2.0	b0	16.0	44.0	60.0	60.0	100.0	16.0	100.0	0.0	0.0	44.0	100.0	0.0	0.0	100.0	655.938	601.5
17.0	2.0	b1	16.0	44.0	60.0	60.0	100.0	16.0	100.0	0.0	0.0	44.0	100.0	0.0	0.0	100.0	694.875	695.0
17.0	2.0	b2	16.0	44.0	60.0	58.0	96.667	14.0	87.5	2.0	12.5	44.0	100.0	0.0	0.0	93.75	777.0	640.0
18.0	2.0	b0	16.0	44.0	60.0	60.0	100.0	16.0	100.0	0.0	0.0	44.0	100.0	0.0	0.0	100.0	589.062	573.0
18.0	2.0	b1	16.0	44.0	60.0	57.0	95.0	15.0	93.75	1.0	6.25	42.0	95.455	2.0	4.545	94.602	614.667	568.0
18.0	2.0	b2	16.0	44.0	60.0	59.0	98.333	15.0	93.75	1.0	6.25	44.0	100.0	0.0	0.0	96.875	619.733	547.0
19.0	2.0	b0	16.0	44.0	60.0	60.0	100.0	16.0	100.0	0.0	0.0	44.0	100.0	0.0	0.0	100.0	549.375	540.0
19.0	2.0	b1	16.0	44.0	60.0	59.0	98.333	16.0	100.0	0.0	0.0	43.0	97.727	1.0	2.273	98.864	686.125	664.0
19.0	2.0	b2	16.0	44.0	60.0	54.0	90.0	15.0	93.75	1.0	6.25	39.0	88.636	5.0	11.364	91.193	745.067	687.0
20.0	2.0	b0	16.0	44.0	60.0	59.0	98.333	16.0	100.0	0.0	0.0	43.0	97.727	1.0	2.273	98.864	885.688	828.0
20.0	2.0	b1	16.0	44.0	60.0	58.0	96.667	15.0	93.75	1.0	6.25	43.0	97.727	1.0	2.273	95.739	950.267	977.0
20.0	2.0	b2	16.0	44.0	60.0	58.0	96.667	15.0	93.75	1.0	6.25	43.0	97.727	1.0	2.273	95.739	899.0	909.0
21.0	2.0	b0	16.0	44.0	60.0	59.0	98.333	16.0	100.0	0.0	0.0	43.0	97.727	1.0	2.273	98.864	626.812	568.0
21.0	2.0	b1	16.0	44.0	60.0	60.0	100.0	16.0	100.0	0.0	0.0	44.0	100.0	0.0	0.0	100.0	624.188	613.5
21.0	2.0	b2	16.0	44.0	60.0	56.0	93.333	13.0	81.25	3.0	18.75	43.0	97.727	1.0	2.273	89.489	856.231	908.0
22.0	2.0	b0	16.0	44.0	60.0	59.0	98.333	15.0	93.75	1.0	6.25	44.0	100.0	0.0	0.0	96.875	717.667	673.0
22.0	2.0	b1	16.0	44.0	60.0	60.0	100.0	16.0	100.0	0.0	0.0	44.0	100.0	0.0	0.0	100.0	817.312	824.0
22.0	2.0	b2	16.0	44.0	60.0	53.0	88.333	11.0	68.75	5.0	31.25	42.0	95.455	2.0	4.545	82.102	837.273	699.0
23.0	2.0	b0	16.0	44.0	60.0	59.0	98.333	15.0	93.75	1.0	6.25	44.0	100.0	0.0	0.0	96.875	1002.0	981.0
23.0	2.0	b1	16.0	44.0	60.0	58.0	96.667	14.0	87.5	2.0	12.5	44.0	100.0	0.0	0.0	93.75	831.286	858.0
23.0	2.0	b2	16.0	44.0	60.0	52.0	86.667	14.0	87.5	2.0	12.5	38.0	86.364	6.0	13.636	86.932	1001.929	968.5
26.0	2.0	b0	16.0	44.0	60.0	60.0	100.0	16.0	100.0	0.0	0.0	44.0	100.0	0.0	0.0	100.0	733.25	748.0
26.0	2.0	b1	16.0	44.0	60.0	58.0	96.667	15.0	93.75	1.0	6.25	43.0	97.727	1.0	2.273	95.739	828.333	769.0
26.0	2.0	b2	16.0	44.0	60.0	55.0	91.667	12.0	75.0	4.0	25.0	43.0	97.727	1.0	2.273	86.364	933.417	1009.0
28.0	2.0	b0	16.0	44.0	60.0	60.0	100.0	16.0	100.0	0.0	0.0	44.0	100.0	0.0	0.0	100.0	506.0	488.0
28.0	2.0	b1	16.0	44.0	60.0	60.0	100.0	16.0	100.0	0.0	0.0	44.0	100.0	0.0	0.0	100.0	549.5	534.5
28.0	2.0	b2	16.0	44.0	60.0	58.0	96.667	14.0	87.5	2.0	12.5	44.0	100.0	0.0	0.0	93.75	673.643	689.5
33.0	2.0	b0	16.0	44.0	60.0	58.0	96.667	16.0	100.0	0.0	0.0	42.0	95.455	2.0	4.545	97.727	651.438	674.5
33.0	2.0	b1	16.0	44.0	60.0	56.0	93.333	15.0	93.75	1.0	6.25	41.0	93.182	3.0	6.818	93.466	745.8	818.0
33.0	2.0	b2	16.0	44.0	60.0	47.0	78.333	7.0	43.75	9.0	56.25	40.0	90.909	4.0	9.091	67.33	715.857	713.0
35.0	2.0	b0	16.0	44.0	60.0	60.0	100.0	16.0	100.0	0.0	0.0	44.0	100.0	0.0	0.0	100.0	656.375	638.0
35.0	2.0	b1	16.0	44.0	60.0	57.0	95.0	13.0	81.25	3.0	18.75	44.0	100.0	0.0	0.0	90.625	888.308	875.0
35.0	2.0	b2	16.0	44.0	60.0	54.0	90.0	10.0	62.5	6.0	37.5	44.0	100.0	0.0	0.0	81.25	968.6	934.5
36.0	2.0	b0	16.0	44.0	60.0	59.0	98.333	16.0	100.0	0.0	0.0	43.0	97.727	1.0	2.273	98.864	462.625	478.5
36.0	2.0	b1	16.0	44.0	60.0	59.0	98.333	16.0	100.0	0.0	0.0	43.0	97.727	1.0	2.273	98.864	607.688	562.5
36.0	2.0	b2	16.0	44.0	60.0	56.0	93.333	12.0	75.0	4.0	25.0	44.0	100.0	0.0	0.0	87.5	654.083	608.0
37.0	2.0	b0	16.0	44.0	60.0	58.0	96.667	16.0	100.0	0.0	0.0	42.0	95.455	2.0	4.545	97.727	725.188	722.5
37.0	2.0	b1	16.0	44.0	60.0	59.0	98.333	15.0	93.75	1.0	6.25	44.0	100.0	0.0	0.0	96.875	810.0	756.0
37.0	2.0	b2	16.0	44.0	60.0	44.0	73.333	11.0	68.75	5.0	31.25	33.0	75.0	11.0	25.0	71.875	822.091	863.0
38.0	2.0	b1	16.0	44.0	60.0	60.0	100.0	16.0	100.0	0.0	0.0	44.0	100.0	0.0	0.0	100.0	488.938	478.0
38.0	2.0	b2	16.0	44.0	60.0	58.0	96.667	15.0	93.75	1.0	6.25	43.0	97.727	1.0	2.273	95.739	543.2	419.0
39.0	2.0	b0	16.0	44.0	60.0	59.0	98.333	16.0	100.0	0.0	0.0	43.0	97.727	1.0	2.273	98.864	750.062	682.5
39.0	2.0	b1	16.0	44.0	60.0	58.0	96.667	15.0	93.75	1.0	6.25	43.0	97.727	1.0	2.273	95.739	773.867	693.0
39.0	2.0	b2	16.0	44.0	60.0	53.0	88.333	12.0	75.0	4.0	25.0	41.0	93.182	3.0	6.818	84.091	819.333	781.0
40.0	2.0	b0	16.0	44.0	60.0	58.0	96.667	16.0	100.0	0.0	0.0	42.0	95.455	2.0	4.545	97.727	535.375	510.0
40.0	2.0	b1	16.0	44.0	60.0	60.0	100.0	16.0	100.0	0.0	0.0	44.0	100.0	0.0	0.0	100.0	543.312	535.0
40.0	2.0	b2	16.0	44.0	60.0	56.0	93.333	12.0	75.0	4.0	25.0	44.0	100.0	0.0	0.0	87.5	621.667	546.0
41.0	2.0	b0	16.0	44.0	60.0	59.0	98.333	16.0	100.0	0.0	0.0	43.0	97.727	1.0	2.273	98.864	430.625	398.0
41.0	2.0	b1	16.0	44.0	60.0	60.0	100.0	16.0	100.0	0.0	0.0	44.0	100.0	0.0	0.0	100.0	482.0	404.0
41.0	2.0	b2	16.0	44.0	60.0	53.0	88.333	9.0	56.25	7.0	43.75	44.0	100.0	0.0	0.0	78.125	616.222	684.0
43.0	2.0	b0	16.0	44.0	60.0	57.0	95.0	16.0	100.0	0.0	0.0	41.0	93.182	3.0	6.818	96.591	496.062	508.5
43.0	2.0	b1	16.0	44.0	60.0	60.0	100.0	16.0	100.0	0.0	0.0	44.0	100.0	0.0	0.0	100.0	637.188	508.5
43.0	2.0	b2	16.0	44.0	60.0	55.0	91.667	13.0	81.25	3.0	18.75	42.0	95.455	2.0	4.545	88.352	691.538	659.0
45.0	2.0	b0	16.0	44.0	60.0	60.0	100.0	16.0	100.0	0.0	0.0	44.0	100.0	0.0	0.0	100.0	442.562	428.0
45.0	2.0	b1	16.0	44.0	60.0	60.0	100.0	16.0	100.0	0.0	0.0	44.0	100.0	0.0	0.0	100.0	560.188	468.5
45.0	2.0	b2	16.0	44.0	60.0	60.0	100.0	16.0	100.0	0.0	0.0	44.0	100.0	0.0	0.0	100.0	435.688	418.5
49.0	2.0	b0	16.0	44.0	60.0	60.0	100.0	16.0	100.0	0.0	0.0	44.0	100.0	0.0	0.0	100.0	484.188	447.5
49.0	2.0	b1	16.0	44.0	60.0	59.0	98.333	16.0	100.0	0.0	0.0	43.0	97.727	1.0	2.273	98.864	586.188	568.0
49.0	2.0	b2	16.0	44.0	60.0	49.0	81.667	5.0	31.25	11.0	68.75	44.0	100.0	0.0	0.0	65.625	649.6	640.0
51.0	2.0	b0	16.0	44.0	60.0	59.0	98.333	16.0	100.0	0.0	0.0	43.0	97.727	1.0	2.273	98.864	730.5	710.5
51.0	2.0	b1	16.0	44.0	60.0	57.0	95.0	15.0	93.75	1.0	6.25	42.0	95.455	2.0	4.545	94.602	739.467	759.0
51.0	2.0	b2	16.0	44.0	60.0	54.0	90.0	11.0	68.75	5.0	31.25	43.0	97.727	1.0	2.273	83.239	726.909	648.0
52.0	2.0	b0	16.0	44.0	60.0	60.0	100.0	16.0	100.0	0.0	0.0	44.0	100.0	0.0	0.0	100.0	589.188	560.0
52.0	2.0	b1	16.0	44.0	60.0	59.0	98.333	15.0	93.75	1.0	6.25	44.0	100.0	0.0	0.0	96.875	521.867	507.0
52.0	2.0	b2	16.0	44.0	60.0	49.0	81.667	5.0	31.25	11.0	68.75	44.0	100.0	0.0	0.0	65.625	472.6	452.0
54.0	2.0	b0	16.0	44.0	60.0	60.0	100.0	16.0	100.0	0.0	0.0	44.0	100.0	0.0	0.0	100.0	578.75	563.0
54.0	2.0	b1	16.0	44.0	60.0	60.0	100.0	16.0	100.0	0.0	0.0	44.0	100.0	0.0	0.0	100.0	754.562	723.5
54.0	2.0	b2	16.0	44.0	60.0	51.0	85.0	8.0	50.0	8.0	50.0	43.0	97.727	1.0	2.273	73.864	735.5	762.0
55.0	2.0	b0	16.0	44.0	60.0	60.0	100.0	16.0	100.0	0.0	0.0	44.0	100.0	0.0	0.0	100.0	621.688	587.5
55.0	2.0	b1	16.0	44.0	60.0	60.0	100.0	16.0	100.0	0.0	0.0	44.0	100.0	0.0	0.0	100.0	786.375	780.0
55.0	2.0	b2	16.0	44.0	60.0	51.0	85.0	7.0	43.75	9.0	56.25	44.0	100.0	0.0	0.0	71.875	795.857	862.0
68.0	2.0	b0	16.0	44.0	60.0	60.0	100.0	16.0	100.0	0.0	0.0	44.0	100.0	0.0	0.0	100.0	616.25	592.0
68.0	2.0	b1	16.0	44.0	60.0	60.0	100.0	16.0	100.0	0.0	0.0	44.0	100.0	0.0	0.0	100.0	695.438	594.5
68.0	2.0	b2	16.0	44.0	60.0	59.0	98.333	15.0	93.75	1.0	6.25	44.0	100.0	0.0	0.0	96.875	748.467	757.0
71.0	2.0	b0	16.0	44.0	60.0	55.0	91.667	16.0	100.0	0.0	0.0	39.0	88.636	5.0	11.364	94.318	604.125	591.0
71.0	2.0	b1	16.0	44.0	60.0	57.0	95.0	16.0	100.0	0.0	0.0	41.0	93.182	3.0	6.818	96.591	708.0	722.0
71.0	2.0	b2	16.0	44.0	60.0	49.0	81.667	8.0	50.0	8.0	50.0	41.0	93.182	3.0	6.818	71.591	849.625	666.0
74.0	2.0	b0	16.0	44.0	60.0	59.0	98.333	16.0	100.0	0.0	0.0	43.0	97.727	1.0	2.273	98.864	435.812	452.5
74.0	2.0	b1	16.0	44.0	60.0	59.0	98.333	16.0	100.0	0.0	0.0	43.0	97.727	1.0	2.273	98.864	532.938	531.0
74.0	2.0	b2	16.0	44.0	60.0	57.0	95.0	15.0	93.75	1.0	6.25	42.0	95.455	2.0	4.545	94.602	563.0	455.0
78.0	2.0	b0	16.0	44.0	60.0	57.0	95.0	15.0	93.75	1.0	6.25	42.0	95.455	2.0	4.545	94.602	580.933	504.0
78.0	2.0	b1	16.0	44.0	60.0	59.0	98.333	16.0	100.0	0.0	0.0	43.0	97.727	1.0	2.273	98.864	599.75	551.0
78.0	2.0	b2	16.0	44.0	60.0	56.0	93.333	13.0	81.25	3.0	18.75	43.0	97.727	1.0	2.273	89.489	699.538	609.0
80.0	2.0	b0	16.0	44.0	60.0	60.0	100.0	16.0	100.0	0.0	0.0	44.0	100.0	0.0	0.0	100.0	491.062	467.0
80.0	2.0	b1	16.0	44.0	60.0	60.0	100.0	16.0	100.0	0.0	0.0	44.0	100.0	0.0	0.0	100.0	568.062	547.0
80.0	2.0	b2	16.0	44.0	60.0	58.0	96.667	14.0	87.5	2.0	12.5	44.0	100.0	0.0	0.0	93.75	601.929	607.0
83.0	2.0	b0	16.0	44.0	60.0	59.0	98.333	16.0	100.0	0.0	0.0	43.0	97.727	1.0	2.273	98.864	559.312	569.5
83.0	2.0	b1	16.0	44.0	60.0	60.0	100.0	16.0	100.0	0.0	0.0	44.0	100.0	0.0	0.0	100.0	613.0	486.0
83.0	2.0	b2	16.0	44.0	60.0	53.0	88.333	9.0	56.25	7.0	43.75	44.0	100.0	0.0	0.0	78.125	616.444	562.0
84.0	2.0	b0	16.0	44.0	60.0	60.0	100.0	16.0	100.0	0.0	0.0	44.0	100.0	0.0	0.0	100.0	494.375	502.0
84.0	2.0	b1	16.0	44.0	60.0	55.0	91.667	14.0	87.5	2.0	12.5	41.0	93.182	3.0	6.818	90.341	587.571	587.0
84.0	2.0	b2	16.0	44.0	60.0	51.0	85.0	7.0	43.75	9.0	56.25	44.0	100.0	0.0	0.0	71.875	888.143	1046.0
89.0	2.0	b0	16.0	44.0	60.0	60.0	100.0	16.0	100.0	0.0	0.0	44.0	100.0	0.0	0.0	100.0	567.812	567.5
89.0	2.0	b1	16.0	44.0	60.0	60.0	100.0	16.0	100.0	0.0	0.0	44.0	100.0	0.0	0.0	100.0	563.938	538.5
89.0	2.0	b2	16.0	44.0	60.0	56.0	93.333	12.0	75.0	4.0	25.0	44.0	100.0	0.0	0.0	87.5	757.583	697.5
93.0	2.0	b0	16.0	44.0	60.0	60.0	100.0	16.0	100.0	0.0	0.0	44.0	100.0	0.0	0.0	100.0	572.625	538.0
93.0	2.0	b1	16.0	44.0	60.0	41.0	68.333	10.0	62.5	6.0	37.5	31.0	70.455	13.0	29.545	66.477	644.9	535.5
93.0	2.0	b2	16.0	44.0	60.0	48.0	80.0	5.0	31.25	11.0	68.75	43.0	97.727	1.0	2.273	64.489	756.0	784.0
94.0	2.0	b0	16.0	44.0	60.0	58.0	96.667	16.0	100.0	0.0	0.0	42.0	95.455	2.0	4.545	97.727	678.688	606.0
94.0	2.0	b1	16.0	44.0	60.0	59.0	98.333	16.0	100.0	0.0	0.0	43.0	97.727	1.0	2.273	98.864	683.938	625.0
94.0	2.0	b2	16.0	44.0	60.0	51.0	85.0	7.0	43.75	9.0	56.25	44.0	100.0	0.0	0.0	71.875	931.571	677.0
95.0	2.0	b0	16.0	44.0	60.0	60.0	100.0	16.0	100.0	0.0	0.0	44.0	100.0	0.0	0.0	100.0	459.125	447.5
95.0	2.0	b1	16.0	44.0	60.0	60.0	100.0	16.0	100.0	0.0	0.0	44.0	100.0	0.0	0.0	100.0	714.688	667.5
95.0	2.0	b2	16.0	44.0	60.0	50.0	83.333	10.0	62.5	6.0	37.5	40.0	90.909	4.0	9.091	76.705	907.1	938.0
96.0	2.0	b0	16.0	44.0	60.0	60.0	100.0	16.0	100.0	0.0	0.0	44.0	100.0	0.0	0.0	100.0	441.562	456.0
96.0	2.0	b1	16.0	44.0	60.0	59.0	98.333	16.0	100.0	0.0	0.0	43.0	97.727	1.0	2.273	98.864	553.688	560.5
96.0	2.0	b2	16.0	44.0	60.0	54.0	90.0	12.0	75.0	4.0	25.0	42.0	95.455	2.0	4.545	85.227	796.417	795.5
